## valid for standards HR1544, HR7596, HR8634
## ranges containing absorption features
## By Claire Moutou - CFHT Oct 09, 2013
330.0	331.8
338.9	341.4
351.8	354.5
366.4	366.6
367.5   369.4
369.0   370.5
371.5	371.9
372.7	372.9
374.1	374.4
376.0	376.3
378.4	378.7
380.9	381.4	
386.0	387.0
391.7	392.5
401.0	402.5
402.5   404.0
414.0	418.5
418.5	423.0
423.0	428.0
449.0	453.0
460.0	465.0
471.0	475.0
493.0   498.0	
510.0   515.0
534.0   542.0
581.0	588.0	
597.0	602.0
638.0   650.0
667.0	683.0
700.0	715.0
736.0   745.0
745.0   750.0
750.0   755.0
771.0	776.0
780.0	785.0
798.0   800.0
800.0   803.0
803.0   806.0
806.0   809.0
861.9   864.4
870.0	871.5
879.0	882.0
891.0	892.0
986.0   994.0
1013.0  1017.0
1026.0  1037.0
1075.0  1085.0
